File: xrd_umap_package_ja/data/example_pattern.csv
2theta,intensity
10.0,0.0
10.2,0.0
10.4,0.0
10.6,0.0
10.8,0.0
11.0,0.0
11.2,0.0
11.4,0.0
11.6,0.0
11.8,0.0
12.0,0.0
12.2,0.0
12.4,0.0
12.6,0.0
12.8,0.0
13.0,0.0
13.2,0.0
13.4,0.0
13.6,0.0
13.8,0.0
14.0,0.0
14.2,0.0
14.4,0.0
14.6,0.0
14.8,0.0
15.0,0.0
15.2,0.0
15.4,0.0
15.6,0.0
15.8,0.0
16.0,0.0
16.2,0.0
16.4,0.0
16.6,0.0
16.8,0.0
17.0,0.0
17.2,0.0
17.4,0.0
17.6,0.0
17.8,0.0
18.0,0.0
18.2,0.0
18.4,0.0
18.6,0.0
18.8,0.0
19.0,0.0
19.2,0.0
19.4,0.0
19.6,0.0
19.8,0.0
20.0,0.0
20.2,0.0
20.4,0.0
20.6,0.0
20.8,0.0
21.0,0.0
21.2,0.0
21.4,0.0
21.6,0.0
21.8,0.0
22.0,0.0
22.2,0.0
22.4,0.0
22.6,0.0
22.8,0.0
23.0,0.0
23.2,0.0
23.4,0.0
23.6,0.0
23.8,0.0
24.0,0.0
24.2,0.0
24.4,0.0
24.6,0.0
24.8,0.0
25.0,0.0
25.2,0.0
25.4,0.0
25.6,0.0
25.8,0.0
26.0,0.0
26.2,0.0
26.4,0.0
26.6,0.0
26.8,0.0
27.0,0.0
27.2,0.0
27.4,2.75033e-314
27.6,5.31407e-298
27.8,3.77725e-282
28.0,9.87711e-267
28.2,9.50144e-252
28.4,3.36244e-237
28.6,4.37749e-223
28.8,2.09653e-209
29.0,3.69388e-196
29.2,2.39425e-183
29.4,5.70904e-171
29.6,5.00797e-159
29.8,1.61609e-147
30.0,1.91856e-136
30.2,8.37894e-126
30.4,1.3462e-115
30.6,7.95674e-106
30.8,1.73008e-96
31.0,1.3839e-87
31.2,4.07236e-79
31.4,4.40853e-71
31.6,1.75569e-63
31.8,2.57221e-56
32.0,1.38634e-49
32.2,2.74879e-43
32.4,2.00501e-37
32.6,5.38019e-32
32.8,5.31109e-27
33.0,1.92875e-22
33.2,2.57676e-18
33.4,1.26642e-14
33.6,2.28973e-11
33.8,1.523e-08
34.0,3.72665e-06
34.2,0.000335463
34.4,0.011109
34.6,0.135335
34.8,0.606531
35.0,1.0
35.2,0.606531
35.4,0.135335
35.6,0.011109
35.8,0.000335463
36.0,3.72665e-06
36.2,1.523e-08
36.4,2.28973e-11
36.6,1.26642e-14
36.8,2.57676e-18
37.0,1.92875e-22
37.2,5.31109e-27
37.4,5.38019e-32
37.6,2.00501e-37
37.8,2.74879e-43
38.0,1.38634e-49
38.2,2.57221e-56
38.4,1.75569e-63
38.6,4.40853e-71
38.8,4.07236e-79
39.0,1.3839e-87
39.2,1.73008e-96
39.4,7.95674e-106
39.6,1.3462e-115
39.8,8.37894e-126
40.0,1.91856e-136
40.2,1.61609e-147
40.4,5.00797e-159
40.6,5.70904e-171
40.8,2.39425e-183
41.0,3.69388e-196
41.2,2.09653e-209
41.4,4.37749e-223
41.6,3.36244e-237
41.8,9.50144e-252
42.0,9.87711e-267
42.2,3.77725e-282
42.4,5.31407e-298
42.6,2.75033e-314
42.8,0.0
43.0,0.0
43.2,0.0
43.4,0.0
43.6,0.0
43.8,0.0
44.0,0.0
44.2,0.0
44.4,0.0
44.6,0.0
44.8,0.0
45.0,0.0
45.2,0.0
45.4,0.0
45.6,0.0
45.8,0.0
46.0,0.0
46.2,0.0
46.4,0.0
46.6,0.0
46.8,0.0
47.0,0.0
47.2,0.0
47.4,0.0
47.6,0.0
47.8,0.0
48.0,0.0
48.2,0.0
48.4,0.0
48.6,2.75033e-315
48.8,2.2131e-304
49.0,1.14182e-293
49.2,3.77725e-283
49.4,8.01186e-273
49.6,1.08961e-262
49.8,9.50144e-253
50.0,5.31236e-243
50.2,1.90444e-233
50.4,4.37749e-224
50.6,6.45155e-215
50.8,6.09654e-206
51.0,3.69388e-197
51.2,1.43504e-188
51.4,3.57456e-180
51.6,5.70904e-172
51.8,5.84633e-164
52.0,3.8387e-156
52.2,1.61609e-148
52.4,4.36241e-141
52.6,7.55036e-134
52.8,8.37894e-127
53.0,5.96199e-120
53.2,2.72003e-113
53.4,7.95674e-107
53.6,1.49237e-100
53.8,1.79474e-94
54.0,1.3839e-88
54.2,6.84206e-83
54.4,2.16895e-77
54.6,4.40853e-72
54.8,5.74537e-67
55.0,4.80089e-62
55.2,2.57221e-57
55.4,8.83631e-53
55.6,1.94633e-48
55.8,2.74879e-44
56.0,2.48912e-40
56.2,1.44521e-36
56.4,5.38019e-33
56.6,1.28423e-29
56.8,1.96548e-26
57.0,1.92875e-23
57.2,1.21356e-20
57.4,4.89587e-18
57.6,1.26642e-15
57.8,2.10041e-13
58.0,2.23363e-11
58.2,1.523e-09
58.4,6.65836e-08
58.6,1.86645e-06
58.8,3.35463e-05
59.0,0.000386592
59.2,0.00285655
59.4,0.0135335
59.6,0.0411112
59.8,0.0800737
60.0,0.1
60.2,0.0800737
60.4,0.0411112
60.6,0.0135335
60.8,0.00285655
61.0,0.000386592
61.2,3.35463e-05
61.4,1.86645e-06
61.6,6.65836e-08
61.8,1.523e-09
62.0,2.23363e-11
62.2,2.10041e-13
62.4,1.26642e-15
62.6,4.89587e-18
62.8,1.21356e-20
63.0,1.92875e-23
63.2,1.96548e-26
63.4,1.28423e-29
63.6,5.38019e-33
63.8,1.44521e-36
64.0,2.48912e-40
64.2,2.74879e-44
64.4,1.94633e-48
64.6,8.83631e-53
64.8,2.57221e-57
65.0,4.80089e-62
65.2,5.74537e-67
65.4,4.40853e-72
65.6,2.16895e-77
65.8,6.84206e-83
66.0,1.3839e-88
66.2,1.79474e-94
66.4,1.49237e-100
66.6,7.95674e-107
66.8,2.72003e-113
67.0,5.96199e-120
67.2,8.37894e-127
67.4,7.55036e-134
67.6,4.36241e-141
67.8,1.61609e-148
68.0,3.8387e-156
68.2,5.84633e-164
68.4,5.70904e-172
68.6,3.57456e-180
68.8,1.43504e-188
69.0,3.69388e-197
69.2,6.09654e-206
69.4,6.45155e-215
69.6,4.37749e-224
69.8,1.90444e-233
70.0,5.31236e-243
70.2,9.50144e-253
70.4,1.08961e-262
70.6,8.01186e-273
70.8,3.77725e-283
71.0,1.14182e-293
71.2,2.2131e-304
71.4,2.75033e-315
71.6,0.0
71.8,0.0
72.0,0.0
72.2,0.0
72.4,0.0
72.6,0.0
72.8,0.0
73.0,0.0
73.2,0.0
73.4,0.0
73.6,0.0
73.8,0.0
74.0,0.0
74.2,0.0
74.4,0.0
74.6,0.0
74.8,0.0
75.0,0.0
75.2,0.0
75.4,0.0
75.6,0.0
75.8,0.0
76.0,0.0
76.2,0.0
76.4,0.0
76.6,0.0
76.8,0.0
77.0,0.0
77.2,0.0
77.4,0.0
77.6,0.0
77.8,0.0
78.0,0.0
78.2,0.0
78.4,0.0
78.6,0.0
78.8,0.0
79.0,0.0
79.2,0.0
79.4,0.0
79.6,0.0
79.8,0.0
80.0,0.0